Wavelength,R
860.000000, 99.051750
859.000000, 99.471400
858.000000, 99.676514
857.000000, 99.186468
856.000000, 99.087778
855.000000, 98.871485
854.000000, 98.970299
853.000000, 98.986733
852.000000, 99.045827
851.000000, 98.818074
850.000000, 99.420826
849.000000, 99.180074
848.000000, 99.262146
847.000000, 99.167842
846.000000, 99.016208
845.000000, 99.178867
844.000000, 99.331225
843.000000, 99.280170
842.000000, 99.099327
841.000000, 99.234300
840.000000, 99.362338
839.000000, 99.204188
838.000000, 99.150606
837.000000, 99.052958
836.000000, 99.103491
835.000000, 99.086203
834.000000, 99.118148
833.000000, 99.012951
832.000000, 98.995329
831.000000, 98.953605
830.000000, 99.196039
829.000000, 99.141603
828.000000, 99.129746
827.000000, 99.091522
826.000000, 99.267856
825.000000, 99.213628
824.000000, 99.076481
823.000000, 99.036982
822.000000, 99.146274
821.000000, 99.248235
820.000000, 99.219175
819.000000, 99.237774
818.000000, 99.065677
817.000000, 99.175296
816.000000, 99.295080
815.000000, 99.268610
814.000000, 99.301760
813.000000, 99.173008
812.000000, 99.305317
811.000000, 99.254824
810.000000, 99.122012
809.000000, 99.151000
808.000000, 99.119856
807.000000, 99.166419
806.000000, 99.213145
805.000000, 99.080945
804.000000, 99.206210
803.000000, 99.091825
802.000000, 99.311893
801.000000, 99.268856
800.000000, 99.260141
799.000000, 99.200462
798.000000, 99.261248
797.000000, 99.130358
796.000000, 99.184861
795.000000, 99.211435
794.000000, 99.210359
793.000000, 99.262509
792.000000, 99.183213
791.000000, 99.143610
790.000000, 99.250963
789.000000, 99.282112
788.000000, 99.272123
787.000000, 99.213062
786.000000, 99.200953
785.000000, 99.170094
784.000000, 99.155049
783.000000, 99.147577
782.000000, 99.211479
781.000000, 99.148343
780.000000, 99.174235
779.000000, 99.246446
778.000000, 99.267080
777.000000, 99.179410
776.000000, 99.195172
775.000000, 99.227704
774.000000, 99.226682
773.000000, 99.181687
772.000000, 99.273970
771.000000, 99.185253
770.000000, 99.119026
769.000000, 99.201244
768.000000, 99.137300
767.000000, 99.041410
766.000000, 99.098815
765.000000, 99.042189
764.000000, 99.016545
763.000000, 99.081812
762.000000, 99.086824
761.000000, 99.076497
760.000000, 99.079309
759.000000, 99.122957
758.000000, 99.121105
757.000000, 99.094147
756.000000, 99.101007
755.000000, 99.150421
754.000000, 99.102328
753.000000, 99.121098
752.000000, 99.153699
751.000000, 99.150816
750.000000, 99.204996
749.000000, 99.185931
748.000000, 99.138261
747.000000, 99.182745
746.000000, 99.226079
745.000000, 99.258712
744.000000, 99.251249
743.000000, 99.247283
742.000000, 99.276249
741.000000, 99.242857
740.000000, 99.303910
739.000000, 99.315586
738.000000, 99.239299
737.000000, 99.219998
736.000000, 99.197939
735.000000, 99.242731
734.000000, 99.374006
733.000000, 99.299690
732.000000, 99.223338
731.000000, 99.256845
730.000000, 99.241326
729.000000, 99.265911
728.000000, 99.281908
727.000000, 99.248145
726.000000, 99.309000
725.000000, 99.312168
724.000000, 99.282470
723.000000, 99.334845
722.000000, 99.331833
721.000000, 99.294347
720.000000, 99.271088
719.000000, 99.301774
718.000000, 99.338893
717.000000, 99.302074
716.000000, 99.301336
715.000000, 99.289608
714.000000, 99.290847
713.000000, 99.282588
712.000000, 99.266673
711.000000, 99.271080
710.000000, 99.300719
709.000000, 99.332901
708.000000, 99.303789
707.000000, 99.304086
706.000000, 99.315518
705.000000, 99.310854
704.000000, 99.334057
703.000000, 99.303906
702.000000, 99.263136
701.000000, 99.276393
700.000000, 99.295657
699.000000, 99.278140
698.000000, 99.243959
697.000000, 99.254980
696.000000, 99.293819
695.000000, 99.275113
694.000000, 99.290712
693.000000, 99.310573
692.000000, 99.267907
691.000000, 99.304999
690.000000, 99.338304
689.000000, 99.239745
688.000000, 99.241720
687.000000, 99.306400
686.000000, 99.360744
685.000000, 99.353415
684.000000, 99.274749
683.000000, 99.284928
682.000000, 99.249010
681.000000, 99.286195
680.000000, 99.252868
679.000000, 99.249580
678.000000, 99.219264
677.000000, 99.219227
676.000000, 99.174983
675.000000, 99.208033
674.000000, 99.279132
673.000000, 99.259435
672.000000, 99.206640
671.000000, 99.193113
670.000000, 99.260565
669.000000, 99.265714
668.000000, 99.291070
667.000000, 99.239861
666.000000, 99.245579
665.000000, 99.241041
664.000000, 99.256810
663.000000, 99.251337
662.000000, 99.231263
661.000000, 99.282357
660.000000, 99.248628
659.000000, 99.286254
658.000000, 99.238983
657.000000, 99.206301
656.000000, 99.258790
655.000000, 99.233599
654.000000, 99.235726
653.000000, 99.289568
652.000000, 99.301320
651.000000, 99.275086
650.000000, 99.311880
649.000000, 99.256621
648.000000, 99.279279
647.000000, 99.254004
646.000000, 99.236564
645.000000, 99.303820
644.000000, 99.257577
643.000000, 99.293033
642.000000, 99.310623
641.000000, 99.281456
640.000000, 99.246438
639.000000, 99.225891
638.000000, 99.303442
637.000000, 99.232968
636.000000, 99.279217
635.000000, 99.265364
634.000000, 99.230634
633.000000, 99.311076
632.000000, 99.290525
631.000000, 99.317226
630.000000, 99.263168
629.000000, 99.240688
628.000000, 99.271367
627.000000, 99.276068
626.000000, 99.345032
625.000000, 99.346802
624.000000, 99.326977
623.000000, 99.305307
622.000000, 99.320189
621.000000, 99.293564
620.000000, 99.296160
619.000000, 99.260204
618.000000, 99.299708
617.000000, 99.283161
616.000000, 99.294356
615.000000, 99.262995
614.000000, 99.266386
613.000000, 99.291769
612.000000, 99.300184
611.000000, 99.259083
610.000000, 99.238725
609.000000, 99.291697
608.000000, 99.243949
607.000000, 99.311196
606.000000, 99.287458
605.000000, 99.230216
604.000000, 99.308449
603.000000, 99.332413
602.000000, 99.311137
601.000000, 99.271032
600.000000, 99.240979
599.000000, 99.269804
598.000000, 99.251783
597.000000, 99.296053
596.000000, 99.269850
595.000000, 99.312099
594.000000, 99.299883
593.000000, 99.298936
592.000000, 99.310558
591.000000, 99.258152
590.000000, 99.275659
589.000000, 99.255363
588.000000, 99.336872
587.000000, 99.286450
586.000000, 99.268495
585.000000, 99.296219
584.000000, 99.248435
583.000000, 99.282154
582.000000, 99.291868
581.000000, 99.263758
580.000000, 99.318856
579.000000, 99.288203
578.000000, 99.309951
577.000000, 99.281610
576.000000, 99.237380
575.000000, 99.335887
574.000000, 99.277565
573.000000, 99.315356
572.000000, 99.333385
571.000000, 99.281263
570.000000, 99.292144
569.000000, 99.286068
568.000000, 99.276577
567.000000, 99.259485
566.000000, 99.313355
565.000000, 99.260003
564.000000, 99.243898
563.000000, 99.261733
562.000000, 99.272952
561.000000, 99.271091
560.000000, 99.253822
559.000000, 99.281035
558.000000, 99.235832
557.000000, 99.237022
556.000000, 99.218857
555.000000, 99.232029
554.000000, 99.309981
553.000000, 99.227520
552.000000, 99.233179
551.000000, 99.259228
550.000000, 99.278071
549.000000, 99.207665
548.000000, 99.258581
547.000000, 99.272732
546.000000, 99.270198
545.000000, 99.243024
544.000000, 99.249554
543.000000, 99.250694
542.000000, 99.246271
541.000000, 99.289011
540.000000, 99.259757
539.000000, 99.276380
538.000000, 99.249469
537.000000, 99.242336
536.000000, 99.225218
535.000000, 99.257887
534.000000, 99.228158
533.000000, 99.210096
532.000000, 99.235204
531.000000, 99.210763
530.000000, 99.233937
529.000000, 99.242921
528.000000, 99.221996
527.000000, 99.186393
526.000000, 99.198510
525.000000, 99.210544
524.000000, 99.219630
523.000000, 99.225016
522.000000, 99.200054
521.000000, 99.184438
520.000000, 99.178077
519.000000, 99.202504
518.000000, 99.190069
517.000000, 99.170124
516.000000, 99.182433
515.000000, 99.171814
514.000000, 99.149193
513.000000, 99.150079
512.000000, 99.161800
511.000000, 99.137098
510.000000, 99.151813
509.000000, 99.143403
508.000000, 99.128912
507.000000, 99.141120
506.000000, 99.127487
505.000000, 99.099494
504.000000, 99.083334
503.000000, 99.078563
502.000000, 99.100235
501.000000, 99.079125
500.000000, 99.052465
499.000000, 99.027988
498.000000, 99.019319
497.000000, 99.031466
496.000000, 99.022723
495.000000, 98.992222
494.000000, 98.960324
493.000000, 98.944873
492.000000, 98.910748
491.000000, 98.874287
490.000000, 98.853910
489.000000, 98.784782
488.000000, 98.724264
487.000000, 98.738174
486.000000, 98.715172
485.000000, 98.643280
484.000000, 98.588193
483.000000, 98.554517
482.000000, 98.538020
481.000000, 98.548450
480.000000, 98.554543
479.000000, 98.507436
478.000000, 98.463536
477.000000, 98.434873
476.000000, 98.415964
475.000000, 98.409749
474.000000, 98.420611
473.000000, 98.436082
472.000000, 98.437604
471.000000, 98.398584
470.000000, 98.372218
469.000000, 98.338213
468.000000, 98.305159
467.000000, 98.320160
466.000000, 98.309466
465.000000, 98.285422
464.000000, 98.260931
463.000000, 98.263977
462.000000, 98.277318
461.000000, 98.244696
460.000000, 98.213039
459.000000, 98.206807
458.000000, 98.201256
457.000000, 98.186881
456.000000, 98.176664
455.000000, 98.143198
454.000000, 98.104804
453.000000, 98.125083
452.000000, 98.124591
451.000000, 98.133973
450.000000, 98.106623
449.000000, 98.068912
448.000000, 98.071817
447.000000, 98.040064
446.000000, 98.026532
445.000000, 98.012836
444.000000, 98.015084
443.000000, 98.034531
442.000000, 97.991451
441.000000, 97.909119
440.000000, 97.946302
439.000000, 97.993227
438.000000, 97.980101
437.000000, 97.952305
436.000000, 97.965624
435.000000, 97.967631
434.000000, 97.965972
433.000000, 97.917788
432.000000, 97.893479
431.000000, 97.875908
430.000000, 97.827353
429.000000, 97.761954
428.000000, 97.725723
427.000000, 97.649365
426.000000, 97.638594
425.000000, 97.561949
424.000000, 97.374974
423.000000, 97.237978
422.000000, 97.071893
421.000000, 96.916638
420.000000, 96.630667
419.000000, 96.280984
418.000000, 95.897077
417.000000, 95.457533
416.000000, 94.943535
415.000000, 94.343759
414.000000, 93.651968
413.000000, 92.767423
412.000000, 91.780022
411.000000, 90.678993
410.000000, 89.460199
409.000000, 88.101630
408.000000, 86.572374
407.000000, 84.968973
406.000000, 83.210878
405.000000, 81.279162
404.000000, 79.219937
403.000000, 77.156320
402.000000, 74.914292
401.000000, 72.610226
400.000000, 70.284155
399.000000, 67.930122
398.000000, 65.552864
397.000000, 63.157215
396.000000, 60.817381
395.000000, 58.541151
394.000000, 56.237976
393.000000, 54.023530
392.000000, 51.830130
391.000000, 49.808869
390.000000, 47.881004
389.000000, 46.044053
388.000000, 44.358457
387.000000, 42.815328
386.000000, 41.432693
385.000000, 40.105177
384.000000, 38.949636
383.000000, 37.868203
382.000000, 36.901359
381.000000, 36.019470
380.000000, 35.142608
379.000000, 34.368339
378.000000, 33.658678
377.000000, 32.838665
376.000000, 32.299740
375.000000, 31.735655
374.000000, 31.170208
373.000000, 30.702600
372.000000, 30.242897
371.000000, 29.799414
370.000000, 29.346073
369.000000, 28.993852
368.000000, 28.640929
367.000000, 28.261504
366.000000, 27.912998
365.000000, 27.611165
364.000000, 27.307527
363.000000, 27.026959
362.000000, 26.787388
361.000000, 26.513961
360.000000, 26.260698
359.000000, 26.068110
358.000000, 25.818770
357.000000, 25.666532
356.000000, 25.467306
355.000000, 25.273166
354.000000, 25.111003
353.000000, 24.916042
352.000000, 24.839415
351.000000, 24.713709
350.000000, 24.575197
349.000000, 24.464494
348.000000, 24.360954
347.000000, 24.282496
346.000000, 24.254999
345.000000, 24.122389
344.000000, 24.065052
343.000000, 24.041068
342.000000, 24.002419
341.000000, 23.984563
340.000000, 23.985233
339.000000, 23.956717
338.000000, 23.983917
337.000000, 23.993473
336.000000, 24.034360
335.000000, 24.017188
334.000000, 24.112426
333.000000, 24.058120
332.000000, 24.161389
331.000000, 24.165469
330.000000, 24.272405
329.000000, 24.280714
328.000000, 24.293144
327.000000, 24.371381
326.000000, 24.445093
325.000000, 24.485708
324.000000, 24.523055
323.000000, 24.663876
322.000000, 24.665562
321.000000, 24.739900
320.000000, 24.801411
319.000000, 24.844761
318.000000, 24.903390
317.000000, 24.942294
316.000000, 25.000454
315.000000, 25.098907
314.000000, 25.081285
313.000000, 25.124886
312.000000, 25.177983
311.000000, 25.257100
310.000000, 25.275828
309.000000, 25.325008
308.000000, 25.379475
307.000000, 25.379099
306.000000, 25.400126
305.000000, 25.392930
304.000000, 25.484623
303.000000, 25.459676
302.000000, 25.461641
301.000000, 25.526592
300.000000, 25.504268
299.000000, 25.533234
298.000000, 25.561581
297.000000, 25.624803
296.000000, 25.590098
295.000000, 25.659427
294.000000, 25.675191
293.000000, 25.664993
292.000000, 25.706814
291.000000, 25.717317
290.000000, 25.728246
289.000000, 25.778944
288.000000, 25.822706
287.000000, 25.865193
286.000000, 25.885065
285.000000, 25.931242
284.000000, 25.949519
283.000000, 26.000022
282.000000, 26.071075
281.000000, 26.065602
280.000000, 26.140470
279.000000, 26.190481
278.000000, 26.243512
277.000000, 26.285958
276.000000, 26.376877
275.000000, 26.464269
274.000000, 26.507618
273.000000, 26.498309
272.000000, 26.517628
271.000000, 26.553615
270.000000, 26.560038
269.000000, 26.607540
268.000000, 26.594599
267.000000, 26.650528
266.000000, 26.671758
265.000000, 26.690355
264.000000, 26.690658
263.000000, 26.697858
262.000000, 26.687259
261.000000, 26.666342
260.000000, 26.629220
259.000000, 26.588856
258.000000, 26.574147
257.000000, 26.538356
256.000000, 26.466356
255.000000, 26.415990
254.000000, 26.312587
253.000000, 26.220681
252.000000, 26.140276
251.000000, 26.064847
250.000000, 25.960157
249.000000, 25.840110
248.000000, 25.684841
247.000000, 25.544380
246.000000, 25.421700
245.000000, 25.237100
244.000000, 25.065477
243.000000, 24.866901
242.000000, 24.665864
241.000000, 24.439279
240.000000, 24.215052
239.000000, 23.998731
238.000000, 23.804248
237.000000, 23.613631
236.000000, 23.443447
235.000000, 23.300747
234.000000, 23.195154
233.000000, 23.132397
232.000000, 23.082727
231.000000, 23.098062
230.000000, 23.147355
229.000000, 23.207151
228.000000, 23.305640
227.000000, 23.474476
226.000000, 23.671450
225.000000, 23.922861
224.000000, 24.176904
223.000000, 24.475270
222.000000, 24.730664
221.000000, 24.966867
220.000000, 25.234974
219.000000, 25.521966
218.000000, 25.770926
217.000000, 26.020495
216.000000, 26.259126
215.000000, 26.486872
214.000000, 26.707485
213.000000, 26.905399
212.000000, 27.094553
211.000000, 27.284939
210.000000, 27.500022
209.000000, 27.687042
208.000000, 27.864030
207.000000, 28.033618
206.000000, 28.210882
205.000000, 28.373638
204.000000, 28.534781
203.000000, 28.686672
202.000000, 28.836822
201.000000, 29.016568
200.000000, 29.189124
